#Wave		#Intensity
3201.183594	54720.734375
3200.482422	55138.042969
3199.781250	55235.199219
3199.080078	55114.824219
3198.378906	56042.550781
3197.677734	55861.480469
3196.975586	56104.535156
3196.274414	56012.585938
3195.572266	56373.078125
3194.870117	56441.386719
3194.167969	56726.886719
3193.465820	57047.886719
3192.763672	56863.289063
3192.061523	56483.003906
3191.359375	57565.378906
3190.656250	56747.484375
3189.953125	58395.019531
3189.250977	57018.882813
3188.547852	57122.503906
3187.844727	57930.035156
3187.140625	58488.445313
3186.437500	58382.054688
3185.734375	58588.394531
3185.030273	58336.355469
3184.326172	58098.609375
3183.623047	58496.664063
3182.918945	58851.964844
3182.214844	59501.804688
3181.509766	59132.675781
3180.805664	58941.125000
3180.100586	59164.796875
3179.396484	59892.156250
3178.691406	60385.148438
3177.986328	59973.621094
3177.281250	60487.691406
3176.576172	60537.160156
3175.871094	60069.109375
3175.166016	60933.726563
3174.459961	61227.566406
3173.753906	61021.789063
3173.048828	61659.074219
3172.342773	61750.761719
3171.636719	62384.148438
3170.930664	62429.648438
3170.223633	61990.218750
3169.517578	62488.738281
3168.810547	62357.277344
3168.104492	62583.152344
3167.397461	62770.042969
3166.690430	63497.914063
3165.983398	63447.675781
3165.276367	62669.234375
3164.569336	63909.214844
3163.861328	63887.195313
3163.154297	64041.835938
3162.446289	64440.160156
3161.738281	64774.765625
3161.030273	65017.437500
3160.322266	65122.328125
3159.614258	65587.234375
3158.905273	66355.492188
3158.197266	66110.734375
3157.488281	66543.453125
3156.780273	66584.468750
3156.071289	66798.281250
3155.362305	67001.429688
3154.653320	67617.000000
3153.943359	67943.304688
3153.234375	68146.132813
3152.525391	68556.789063
3151.815430	68858.078125
3151.105469	68285.695313
3150.395508	68770.046875
3149.685547	69655.640625
3148.975586	69843.851563
3148.265625	69926.390625
3147.554688	70121.515625
3146.844727	70552.312500
3146.133789	70940.742188
3145.422852	71357.171875
3144.711914	71667.937500
3144.000977	72045.398438
3143.290039	71828.601563
3142.579102	72381.640625
3141.867188	72245.687500
3141.156250	72752.765625
3140.444336	72904.851563
3139.732422	73190.343750
3139.020508	73373.898438
3138.308594	74157.773438
3137.596680	74435.859375
3136.883789	74583.984375
3136.171875	75321.593750
3135.458984	75455.468750
3134.746094	75992.695313
3134.033203	76354.367188
3133.320313	75821.703125
3132.607422	76996.671875
3131.894531	77035.460938
3131.181641	78364.000000
3130.467773	77708.695313
3129.753906	77340.906250
3129.041016	78787.765625
3128.327148	78651.070313
3127.612305	79235.757813
3126.898438	79351.093750
3126.184570	79984.453125
3125.469727	80684.070313
3124.755859	80473.648438
3124.041016	81869.132813
3123.326172	81707.546875
3122.611328	82287.429688
3121.896484	81814.617188
3121.181641	82338.335938
3120.465820	83029.640625
3119.750977	82979.804688
3119.035156	83335.296875
3118.320313	84246.132813
3117.604492	84646.679688
3116.888672	84467.359375
3116.171875	85971.070313
3115.456055	85707.781250
3114.740234	85587.695313
3114.023438	86305.187500
3113.306641	87542.304688
3112.589844	87254.492188
3111.874023	87364.398438
3111.156250	87666.062500
3110.439453	88602.179688
3109.722656	89255.585938
3109.004883	89026.960938
3108.288086	89735.804688
3107.570313	89803.320313
3106.852539	90083.296875
3106.134766	90136.781250
3105.416992	91074.734375
3104.699219	91618.921875
3103.980469	91149.945313
3103.262695	92410.875000
3102.543945	93222.460938
3101.825195	93424.898438
3101.106445	93070.710938
3100.387695	93398.304688
3099.668945	94379.500000
3098.949219	95402.054688
3098.230469	94811.375000
3097.510742	95513.750000
3096.791992	95621.679688
3096.072266	95833.789063
3095.352539	96994.085938
3094.632813	97313.531250
3093.912109	98202.304688
3093.192383	97844.437500
3092.471680	98895.921875
3091.751953	98340.234375
3091.031250	98301.742188
3090.310547	99040.343750
3089.589844	99463.039063
3088.869141	100374.554688
3088.147461	100415.453125
3087.426758	100657.398438
3086.705078	101346.367188
3085.984375	101522.210938
3085.262695	101694.515625
3084.541016	102261.664063
3083.819336	102929.054688
3083.096680	102335.703125
3082.375000	103546.406250
3081.652344	103738.937500
3080.930664	104547.468750
3080.208008	104590.945313
3079.485352	105277.929688
3078.762695	105618.742188
3078.040039	105897.171875
3077.316406	107036.523438
3076.593750	106432.976563
3075.870117	106576.289063
3075.147461	107666.500000
3074.423828	107529.640625
3073.700195	108242.710938
3072.976563	108264.671875
3072.251953	108518.015625
3071.528320	109361.718750
3070.803711	109545.718750
3070.080078	110009.234375
3069.355469	111549.320313
3068.630859	111494.726563
3067.906250	111274.562500
3067.181641	111775.359375
3066.456055	112024.218750
3065.731445	112679.843750
3065.005859	112990.500000
3064.281250	114452.242188
3063.555664	114328.242188
3062.830078	113935.531250
3062.104492	114486.859375
3061.377930	114772.773438
3060.652344	116122.656250
3059.925781	116773.117188
3059.200195	116755.523438
3058.473633	116675.968750
3057.747070	117195.203125
3057.020508	117707.367188
3056.293945	117648.312500
3055.566406	118284.015625
3054.839844	119308.046875
3054.112305	119565.023438
3053.385742	118904.109375
3052.658203	119037.328125
3051.930664	120201.351563
3051.203125	120581.640625
3050.474609	122085.015625
3049.747070	121984.007813
3049.018555	122116.531250
3048.291016	122506.476563
3047.562500	122264.703125
3046.833984	122846.656250
3046.105469	123946.515625
3045.376953	123656.570313
3044.647461	124862.195313
3043.918945	124517.312500
3043.189453	124247.976563
3042.459961	126087.039063
3041.730469	126513.296875
3041.000977	126781.750000
3040.271484	126207.242188
3039.541992	128284.398438
3038.812500	128264.671875
3038.082031	128875.039063
3037.351563	129094.867188
3036.621094	130050.601563
3035.890625	129876.531250
3035.160156	130157.632813
3034.429688	130955.257813
3033.699219	131691.015625
3032.967773	132662.484375
3032.237305	132248.703125
3031.505859	133021.421875
3030.774414	133311.875000
3030.042969	133366.406250
3029.311523	133113.375000
3028.579102	134749.703125
3027.847656	135726.187500
3027.115234	135517.250000
3026.382813	136329.343750
3025.651367	136212.531250
3024.918945	137061.734375
3024.185547	137497.687500
3023.453125	138291.734375
3022.720703	139327.703125
3021.987305	139650.437500
3021.254883	139284.171875
3020.521484	139869.328125
3019.788086	141119.000000
3019.054688	141921.734375
3018.320313	141541.671875
3017.586914	142217.953125
3016.853516	142825.859375
3016.119141	142748.953125
3015.384766	143925.203125
3014.650391	143671.078125
3013.916016	144465.468750
3013.181641	145034.953125
3012.447266	145580.390625
3011.711914	146506.687500
3010.977539	146966.625000
3010.242188	147746.078125
3009.506836	147698.937500
3008.771484	147532.828125
3008.036133	147951.437500
3007.300781	148325.687500
3006.564453	149787.140625
3005.829102	149960.484375
3005.092773	149987.687500
3004.356445	151206.906250
3003.620117	151858.625000
3002.883789	152666.281250
3002.147461	152743.859375
3001.411133	153415.296875
3000.673828	154198.453125
2999.937500	154584.421875
2999.200195	155133.031250
2998.462891	155359.281250
2997.725586	156063.500000
2996.988281	156452.203125
2996.250000	157501.687500
2995.512695	157886.578125
2994.774414	158372.968750
2994.037109	158872.734375
2993.298828	159165.718750
2992.560547	159458.578125
2991.822266	159981.546875
2991.083008	160551.718750
2990.344727	160949.062500
2989.605469	161525.609375
2988.867188	161912.468750
2988.127930	162275.500000
2987.388672	162344.171875
2986.649414	162876.062500
2985.910156	163174.468750
2985.169922	163611.359375
2984.430664	164054.828125
2983.690430	164413.656250
2982.950195	164623.718750
2982.209961	164945.156250
2981.469727	165344.125000
2980.729492	165408.687500
2979.989258	165706.156250
2979.248047	166006.875000
2978.507813	166226.500000
2977.766602	166422.406250
2977.025391	166641.859375
2976.284180	166854.468750
2975.542969	167033.281250
2974.801758	167245.734375
2974.059570	167390.687500
2973.318359	167478.281250
2972.576172	167596.156250
2971.833984	167687.046875
2971.091797	168030.515625
2970.349609	167946.140625
2969.607422	168141.265625
2968.864258	168255.515625
2968.122070	168362.984375
2967.378906	168433.390625
2966.635742	168426.375000
2965.892578	168685.125000
2965.149414	168792.406250
2964.406250	168849.203125
2963.663086	169050.562500
2962.918945	169009.781250
2962.175781	168965.640625
2961.431641	169156.765625
2960.687500	169159.640625
2959.943359	169296.890625
2959.199219	169118.359375
2958.454102	169493.968750
2957.709961	169557.187500
2956.964844	169610.312500
2956.219727	169337.843750
2955.475586	169760.093750
2954.730469	169799.718750
2953.984375	169691.703125
2953.239258	169603.859375
2952.494141	169666.937500
2951.748047	169723.265625
2951.001953	169903.593750
2950.255859	169762.125000
2949.509766	169821.734375
2948.763672	169831.078125
2948.017578	170014.578125
2947.271484	169879.843750
2946.524414	169875.750000
2945.777344	169814.734375
2945.031250	169850.796875
2944.284180	170030.750000
2943.536133	169946.296875
2942.789063	170065.921875
2942.041992	170108.578125
2941.293945	170224.781250
2940.546875	170257.343750
2939.798828	170259.812500
2939.050781	170222.156250
2938.302734	170174.484375
2937.554688	170237.062500
2936.805664	170216.109375
2936.057617	170265.296875
2935.308594	170417.968750
2934.559570	170303.500000
2933.810547	170295.875000
2933.061523	170248.187500
2932.312500	170263.921875
2931.563477	170366.375000
2930.813477	170448.781250
2930.064453	170254.328125
2929.314453	170296.703125
2928.564453	170202.343750
2927.814453	170414.687500
2927.064453	170287.015625
2926.314453	170216.015625
2925.563477	170664.734375
2924.812500	170313.906250
2924.062500	170329.500000
2923.311523	170408.359375
2922.560547	170101.015625
2921.809570	170133.265625
2921.057617	170278.640625
2920.306641	170171.093750
2919.554688	170303.093750
2918.803711	170395.125000
2918.051758	170098.046875
2917.299805	170219.984375
2916.547852	170202.265625
2915.794922	170207.812500
2915.042969	170366.187500
2914.290039	170281.984375
2913.538086	170274.187500
2912.785156	170332.828125
2912.032227	170112.500000
2911.279297	170380.281250
2910.525391	170060.437500
2909.772461	170145.593750
2909.018555	170147.734375
2908.265625	170183.062500
2907.511719	170045.890625
2906.757813	170233.750000
2906.003906	169920.875000
2905.250000	170068.890625
2904.495117	170080.953125
2903.741211	170152.656250
2902.986328	170174.625000
2902.231445	169977.953125
2901.476563	170056.234375
2900.721680	169968.906250
2899.966797	170037.218750
2899.211914	169939.984375
2898.456055	170230.000000
2897.700195	169884.578125
2896.945313	169992.531250
2896.189453	170126.890625
2895.433594	170059.453125
2894.676758	170084.609375
2893.920898	170000.671875
2893.164063	169943.187500
2892.408203	169935.296875
2891.651367	170033.125000
2890.894531	169906.281250
2890.137695	169971.031250
2889.380859	169725.343750
2888.623047	169955.171875
2887.866211	169772.281250
2887.108398	169873.296875
2886.351563	169904.968750
2885.593750	169850.828125
2884.835938	169968.234375
2884.077148	169871.218750
2883.319336	169919.328125
2882.560547	169957.515625
2881.802734	169857.234375
2881.043945	169786.640625
2880.285156	169772.093750
2879.526367	169961.781250
2878.767578	169716.625000
2878.008789	169807.453125
2877.249023	169592.015625
2876.489258	169643.312500
2875.730469	169780.171875
2874.970703	169782.031250
2874.210938	169688.468750
2873.450195	169973.250000
2872.690430	169702.062500
2871.930664	170045.921875
2871.169922	169896.453125
2870.409180	169635.265625
2869.648438	169811.296875
2868.887695	169727.671875
2868.126953	169601.343750
2867.366211	169613.015625
2866.604492	169637.812500
2865.843750	169757.828125
2865.082031	169608.578125
2864.320313	169574.250000
2863.558594	169592.453125
2862.796875	169489.218750
2862.034180	169566.468750
2861.272461	169614.140625
2860.509766	169579.828125
2859.748047	169483.203125
2858.985352	169471.843750
2858.222656	169440.812500
2857.458984	169501.546875
2856.696289	169463.968750
2855.933594	169347.765625
2855.169922	169369.156250
2854.406250	169328.312500
2853.642578	169326.765625
2852.878906	169331.765625
2852.115234	169461.109375
2851.351563	169246.828125
2850.586914	169418.671875
2849.823242	169201.171875
2849.058594	169350.046875
2848.293945	169381.156250
2847.529297	169281.453125
2846.764648	169266.781250
2845.999023	169274.984375
2845.234375	169462.875000
2844.468750	169101.875000
2843.703125	169070.875000
2842.938477	169062.734375
2842.171875	169119.906250
2841.406250	169180.312500
2840.640625	169227.625000
2839.874023	169079.125000
2839.108398	169008.968750
2838.341797	169265.031250
2837.575195	168953.515625
2836.808594	169173.609375
2836.041992	168999.140625
2835.274414	168981.171875
2834.507813	169220.687500
2833.740234	169303.687500
2832.973633	168917.531250
2832.206055	168948.421875
2831.438477	168930.453125
2830.669922	169032.953125
2829.902344	168832.656250
2829.133789	169136.937500
2828.366211	169027.781250
2827.597656	169019.546875
2826.829102	168796.593750
2826.060547	168905.468750
2825.291992	168962.265625
2824.522461	168788.187500
2823.753906	168939.250000
2822.984375	168826.968750
2822.214844	168987.703125
2821.445313	168771.484375
2820.675781	168990.609375
2819.906250	168975.812500
2819.136719	168957.781250
2818.366211	168673.515625
2817.595703	168804.828125
2816.826172	168773.828125
2816.055664	168752.562500
2815.285156	168770.218750
2814.513672	168638.671875
2813.743164	168666.046875
2812.971680	168628.578125
2812.201172	168630.015625
2811.429688	168563.375000
2810.658203	168623.125000
2809.886719	168608.343750
2809.114258	168648.625000
2808.342773	168656.484375
2807.570313	168563.953125
2806.798828	168662.468750
2806.026367	168560.250000
2805.253906	168661.953125
2804.481445	168482.093750
2803.708008	168544.937500
2802.935547	168685.390625
2802.162109	168563.812500
2801.389648	168568.375000
2800.616211	168414.531250
2799.842773	168732.640625
2799.069336	168378.437500
2798.294922	168573.640625
2797.521484	168471.546875
2796.747070	168582.671875
2795.972656	168516.140625
2795.199219	168394.718750
2794.424805	168344.375000
2793.649414	168507.046875
2792.875000	168401.812500
2792.100586	168370.812500
2791.325195	168443.046875
2790.549805	168231.437500
2789.774414	168303.656250
2788.999023	168221.093750
2788.223633	168261.031250
2787.448242	168120.484375
2786.671875	168295.750000
2785.895508	168277.640625
2785.120117	168211.234375
2784.343750	168235.000000
2783.567383	168200.796875
2782.790039	168002.421875
2782.013672	168167.812500
2781.236328	168098.218750
2780.459961	168282.812500
2779.682617	168129.578125
2778.905273	168143.625000
2778.127930	168157.671875
2777.350586	168065.593750
2776.572266	168005.703125
2775.794922	168032.593750
2775.016602	167950.203125
2774.238281	168201.968750
2773.459961	167872.250000
2772.681641	168062.890625
2771.903320	168006.234375
2771.124023	168000.937500
2770.345703	167918.609375
2769.566406	168115.500000
2768.787109	167891.984375
2768.007813	167784.046875
2767.228516	167881.390625
2766.449219	168046.046875
2765.668945	167957.343750
2764.888672	167907.125000
2764.109375	167965.906250
2763.329102	167918.890625
2762.548828	167859.078125
2761.768555	167863.359375
2760.987305	167729.906250
2760.207031	167823.828125
2759.425781	167898.515625
2758.644531	167771.500000
2757.863281	167753.343750
2757.082031	167751.187500
2756.300781	167749.015625
2755.519531	167740.437500
2754.737305	167757.437500
2753.955078	167774.437500
2753.173828	167596.406250
2752.391602	167600.625000
2751.608398	167572.875000
2750.826172	167676.125000
2750.043945	167469.468750
2749.260742	167566.296875
2748.478516	167650.312500
2747.695313	167648.078125
2746.912109	167642.640625
2746.127930	167570.187500
2745.344727	167695.593750
2744.561523	167514.671875
2743.777344	167566.656250
2742.993164	167411.312500
2742.208984	167686.468750
2741.424805	167400.468750
2740.640625	167449.203125
2739.856445	167523.421875
2739.071289	167540.250000
2738.287109	167525.218750
2737.501953	167535.656250
2736.716797	167476.031250
2735.931641	167425.968750
2735.146484	167283.593750
2734.360352	167475.453125
2733.575195	167240.843750
2732.789063	167289.453125
2732.002930	167395.281250
2731.216797	167240.296875
2730.430664	167145.781250
2729.644531	167143.468750
2728.857422	167236.515625
2728.071289	167116.609375
2727.284180	167174.656250
2726.497070	167283.500000
2725.709961	167135.031250
2724.922852	167119.984375
2724.135742	167000.171875
2723.347656	167153.375000
2722.560547	167211.296875
2721.772461	167088.343750
2720.984375	167060.578125
2720.196289	167020.140625
2719.408203	167135.109375
2718.619141	166939.296875
2717.831055	167123.968750
2717.041992	166975.750000
2716.252930	166944.828125
2715.463867	167043.828125
2714.674805	166990.718750
2713.885742	166981.968750
2713.096680	166716.703125
2712.306641	166859.953125
2711.516602	166930.343750
2710.726563	166905.765625
2709.936523	166802.062500
2709.146484	166663.593750
2708.356445	166895.250000
2707.565430	166839.031250
2706.775391	166823.921875
2705.984375	166717.140625
2705.193359	166882.218750
2704.402344	166592.156250
2703.611328	166807.734375
2702.819336	166678.875000
2702.028320	166603.765625
2701.236328	166819.203125
2700.444336	166605.140625
2699.653320	166738.406250
2698.860352	166615.968750
2698.068359	166607.156250
2697.276367	166708.781250
2696.483398	166602.156250
2695.690430	166517.640625
2694.898438	166546.671875
2694.105469	166622.968750
2693.311523	166566.843750
2692.518555	166693.515625
2691.725586	166397.921875
2690.931641	166351.296875
2690.137695	166597.609375
2689.343750	166503.718750
2688.549805	166419.296875
2687.755859	166394.703125
2686.961914	166486.578125
2686.166992	166417.921875
2685.372070	166280.062500
2684.578125	166148.531250
2683.783203	166268.656250
2682.987305	166618.265625
2682.192383	166335.828125
2681.397461	166257.781250
2680.601563	166160.921875
2679.805664	166566.828125
2679.010742	166224.875000
2678.213867	166178.296875
2677.417969	166241.656250
2676.622070	166063.203125
2675.825195	166405.921875
2675.029297	166058.015625
2674.232422	166067.953125
2673.435547	166181.421875
2672.638672	166188.187500
2671.841797	166113.406250
2671.043945	166051.187500
2670.247070	166318.156250
2669.449219	166183.812500
2668.651367	166143.531250
2667.853516	165968.515625
2667.055664	165990.921875
2666.257813	166019.578125
2665.458984	165994.968750
2664.661133	165970.375000
2663.862305	165939.515625
2663.063477	166083.937500
2662.264648	165874.687500
2661.465820	166081.625000
2660.666016	165997.562500
2659.867188	165963.562500
2659.067383	166004.609375
2658.267578	165839.296875
2657.467773	165880.343750
2656.667969	165799.484375
2655.868164	165643.640625
2655.067383	165803.390625
2654.267578	165828.765625
2653.466797	165673.000000
2652.666016	165795.156250
2651.865234	165714.359375
2651.064453	165786.515625
2650.262695	165630.828125
2649.461914	165684.234375
2648.660156	165547.343750
2647.858398	165541.468750
2647.056641	165647.859375
2646.254883	165744.843750
2645.453125	165570.593750
2644.651367	165754.796875
2643.848633	165455.968750
2643.045898	165805.218750
2642.243164	165687.125000
2641.440430	165537.937500
2640.637695	165584.937500
2639.834961	165501.171875
2639.031250	165498.343750
2638.228516	165470.625000
2637.424805	165716.703125
2636.621094	165340.531250
2635.817383	165477.671875
2635.013672	165624.078125
2634.208984	165207.703125
2633.405273	165534.375000
2632.600586	165587.437500
2631.795898	165562.781250
2630.991211	165249.218750
2630.186523	165364.406250
2629.380859	165380.156250
2628.576172	165228.218750
2627.770508	165470.593750
2626.964844	165206.968750
2626.159180	165349.937500
2625.353516	165275.656250
2624.547852	165393.734375
2623.742188	165235.718750
2622.935547	165164.593750
2622.128906	165257.796875
2621.322266	165155.671875
2620.515625	165127.953125
2619.708984	165156.015625
2618.902344	165050.859375
2618.094727	165252.359375
2617.288086	165103.843750
2616.480469	165144.250000
2615.672852	165203.187500
2614.865234	165178.546875
2614.057617	165082.734375
2613.249023	164878.656250
2612.441406	164717.953125
2611.632813	165089.265625
2610.824219	165052.250000
2610.015625	165185.296875
2609.207031	164851.531250
2608.397461	165015.437500
2607.588867	164793.046875
2606.779297	164753.000000
2605.969727	165028.015625
2605.160156	164947.781250
2604.350586	164883.000000
2603.541016	164599.062500
2602.730469	164892.390625
2601.920898	164769.000000
2601.110352	164661.078125
2600.299805	164735.187500
2599.489258	164787.687500
2598.678711	164769.218750
2597.868164	164701.421875
2597.056641	164778.531250
2596.245117	164689.171875
2595.434570	164673.796875
2594.623047	164655.328125
2593.810547	164581.421875
2592.999023	164569.125000
2592.187500	164716.937500
2591.375000	164750.781250
2590.562500	164636.859375
2589.750000	164646.078125
2588.937500	164522.984375
2588.125000	164599.875000
2587.312500	164605.984375
2586.499023	164655.140625
2585.685547	164565.937500
2584.873047	164568.953125
2584.059570	164676.453125
2583.245117	164516.593750
2582.431641	164415.140625
2581.618164	164436.593750
2580.803711	164571.640625
2579.989258	164519.343750
2579.174805	164335.078125
2578.360352	164660.328125
2577.545898	164436.187500
2576.730469	164371.656250
2575.916016	164564.796875
2575.100586	164549.328125
2574.285156	164447.984375
2573.469727	164285.359375
2572.654297	164383.328125
2571.838867	164119.640625
2571.022461	164478.031250
2570.206055	164290.984375
2569.390625	164232.640625
2568.574219	164220.250000
2567.756836	164315.015625
2566.940430	164204.640625
2566.124023	164323.843750
2565.306641	164225.718750
2564.489258	164246.953125
2563.671875	164268.171875
2562.854492	164408.656250
2562.037109	164078.187500
2561.219727	164240.031250
2560.401367	164166.453125
2559.583008	164196.796875
2558.765625	164043.796875
2557.947266	164321.578125
2557.127930	164278.546875
2556.309570	164128.640625
2555.491211	164305.484375
2554.671875	164277.718750
2553.852539	164243.859375
2553.033203	164246.609375
2552.213867	164188.343750
2551.394531	164239.906250
2550.574219	164212.140625
2549.754883	164382.562500
2548.934570	164196.250000
2548.114258	163891.125000
2547.293945	164268.718750
2546.473633	164207.421875
2545.652344	164027.343750
2544.832031	163932.593750
2544.010742	163871.375000
2543.189453	164245.531250
2542.368164	164007.718750
2541.546875	164080.390625
2540.725586	163903.531250
2539.903320	164152.640625
2539.082031	164030.578125
2538.259766	163923.750000
2537.437500	164099.718750
2536.615234	163916.890625
2535.791992	164123.187500
2534.969727	163973.843750
2534.146484	163976.453125
2533.324219	163939.578125
2532.500977	164030.265625
2531.677734	163881.015625
2530.853516	164068.812500
2530.030273	163965.140625
2529.207031	163916.109375
2528.382813	163976.328125
2527.558594	163878.781250
2526.734375	164008.734375
2525.910156	164038.546875
2525.084961	164241.171875
2524.260742	163970.812500
2523.435547	163809.671875
2522.610352	163987.953125
2521.786133	163966.203125
2520.959961	163938.406250
2520.134766	163934.828125
2519.309570	163964.562500
2518.483398	163918.578125
2517.657227	163918.015625
2516.831055	164044.546875
2516.004883	163632.453125
2515.178711	163879.984375
2514.352539	163955.000000
2513.525391	163951.375000
2512.698242	164023.312500
2511.871094	163953.156250
2511.043945	164037.140625
2510.216797	163815.906250
2509.389648	163821.328125
2508.561523	163817.671875
2507.734375	163756.640625
2506.906250	163759.031250
2506.078125	163746.312500
2505.250000	163649.078125
2504.420898	163672.578125
2503.592773	163979.687500
2502.763672	163728.593750
2501.934570	163749.031250
2501.105469	163630.734375
2500.276367	163672.281250
2499.447266	163786.140625
2498.618164	163640.765625
2497.788086	163917.281250
2496.958008	163753.843750
2496.127930	163861.531250
2495.297852	163803.562500
2494.467773	163724.515625
2493.637695	163603.343750
2492.806641	163747.078125
2491.975586	163728.265625
2491.144531	163892.953125
2490.313477	163732.718750
2489.482422	163774.031250
2488.651367	163842.390625
2487.819336	163613.078125
2486.988281	163741.531250
2486.156250	163404.125000
2485.324219	163679.781250
2484.492188	163663.937500
2483.659180	163819.296875
2482.827148	163665.265625
2481.994141	163649.406250
2481.161133	163705.593750
2480.328125	163551.656250
2479.495117	163625.828125
2478.662109	163603.953125
2477.828125	163441.093750
2476.995117	163629.187500
2476.161133	163613.296875
2475.327148	163843.234375
2474.493164	163599.500000
2473.659180	163616.578125
2472.824219	163555.734375
2471.990234	163641.687500
2471.155273	163643.734375
2470.320313	163636.796875
2469.485352	163767.562500
2468.650391	163793.515625
2467.814453	163855.359375
2466.979492	163830.406250
2466.143555	163859.296875
2465.307617	163813.390625
2464.471680	163911.046875
2463.635742	163593.046875
2462.799805	163804.281250
2461.962891	163743.437500
2461.126953	163682.625000
2460.290039	163938.515625
2459.453125	163641.671875
2458.616211	163718.265625
2457.778320	163514.140625
2456.941406	163665.343750
2456.103516	163858.281250
2455.265625	163654.218750
2454.427734	163679.968750
2453.589844	163881.718750
2452.751953	163743.359375
2451.913086	163605.046875
2451.075195	163529.390625
2450.236328	163722.031250
2449.397461	163711.937500
2448.558594	163841.875000
2447.719727	163608.296875
2446.879883	163622.031250
2446.041016	163796.578125
2445.201172	163631.593750
2444.361328	163817.953125
2443.521484	163766.125000
2442.680664	163669.671875
2441.840820	163629.781250
2441.000000	163792.171875
2440.160156	163773.062500
2439.319336	163762.890625
2438.478516	163889.453125
2437.637695	163644.421875
2436.795898	163631.265625
2435.955078	163668.640625
2435.113281	163593.078125
2434.271484	163636.359375
2433.429688	163786.531250
2432.587891	163615.968750
2431.745117	163608.734375
2430.903320	163672.718750
2430.060547	163662.484375
2429.217773	163453.484375
2428.375000	163736.937500
2427.532227	163711.859375
2426.689453	163523.687500
2425.845703	163664.656250
2425.001953	163799.625000
2424.159180	163712.281250
2423.315430	163770.140625
2422.470703	163608.765625
2421.626953	163660.687500
2420.783203	163626.703125
2419.938477	163752.609375
2419.093750	163514.359375
2418.249023	163684.609375
2417.404297	163970.187500
2416.559570	163610.703125
2415.713867	163807.437500
2414.869141	163752.718750
2414.023438	163647.750000
2413.177734	163504.375000
2412.332031	163765.968750
2411.485352	163782.187500
2410.639648	163842.703125
2409.792969	163847.062500
2408.946289	163792.359375
2408.099609	163740.609375
2407.252930	163703.640625
2406.406250	163687.328125
2405.559570	163479.203125
2404.711914	163669.468750
2403.864258	163694.453125
2403.016602	163737.125000
2402.168945	163358.062500
2401.321289	163503.953125
2400.472656	163467.015625
2399.625000	163438.937500
2398.776367	163634.796875
2397.927734	163798.156250
2397.079102	163552.031250
2396.230469	163656.437500
2395.380859	163522.296875
2394.532227	163576.609375
2393.682617	163763.343750
2392.833008	163658.671875
2391.983398	163768.812500
2391.133789	163655.328125
2390.283203	163744.812500
2389.433594	163560.796875
2388.583008	163509.140625
2387.732422	163627.968750
2386.881836	163623.328125
2386.030273	163536.390625
2385.179688	163540.562500
2384.328125	163706.265625
2383.477539	163496.015625
2382.625977	163614.671875
2381.774414	163583.562500
2380.921875	163587.671875
2380.070313	163591.781250
2379.217773	163584.140625
2378.366211	163482.625000
2377.513672	163466.203125
2376.661133	163168.281250
2375.807617	163468.515625
2374.955078	163598.625000
2374.102539	163529.406250
2373.249023	163445.546875
2372.395508	163572.640625
2371.541992	163512.218750
2370.688477	163390.328125
2369.833984	163461.703125
2368.980469	163298.875000
2368.125977	163537.031250
2367.271484	163699.031250
2366.416992	163632.765625
2365.562500	163812.203125
2364.707031	163453.484375
2363.852539	163442.828125
2362.997070	163838.500000
2362.141602	163526.718750
2361.286133	163705.968750
2360.430664	163481.968750
2359.574219	163649.468750
2358.718750	163460.593750
2357.862305	163467.406250
2357.005859	163471.296875
2356.149414	163556.906250
2355.292969	163464.468750
2354.435547	163380.796875
2353.579102	163545.109375
2352.721680	163467.281250
2351.864258	163369.062500
2351.006836	163754.828125
2350.149414	163315.531250
2349.291016	163578.750000
2348.433594	163465.984375
2347.575195	163292.062500
2346.716797	163275.500000
2345.858398	163191.953125
2345.000000	163274.375000
2344.140625	163170.468750
2343.282227	163313.984375
2342.422852	163268.281250
2341.563477	163283.687500
2340.704102	163240.906250
2339.844727	163203.953125
2338.984375	163190.265625
2338.125000	163100.984375
2337.264648	163337.265625
2336.404297	163422.343750
2335.543945	163112.234375
2334.683594	163235.062500
2333.822266	163163.250000
2332.960938	163294.718750
2332.100586	162932.578125
2331.239258	163064.031250
2330.377930	163178.000000
2329.515625	163071.406250
2328.654297	163205.640625
2327.791992	163261.484375
2326.930664	163030.218750
2326.068359	163077.359375
2325.205078	163057.812500
2324.342773	163133.906250
2323.480469	163114.328125
2322.617188	163172.984375
2321.753906	163263.468750
2320.890625	163284.406250
2320.027344	162888.375000
2319.164063	163028.062500
2318.299805	163057.687500
2317.436523	163211.734375
2316.572266	163261.546875
2315.708008	163337.375000
2314.843750	163488.359375
2313.978516	163361.687500
2313.114258	163038.468750
2312.249023	163302.125000
2311.384766	163233.328125
2310.519531	163101.000000
2309.653320	163133.359375
2308.788086	163183.031250
2307.922852	163148.937500
2307.056641	163166.828125
2306.190430	163233.765625
2305.324219	163101.515625
2304.458008	163107.828125
2303.590820	163192.031250
2302.724609	163082.921875
2301.857422	163158.421875
2300.990234	162988.812500
2300.123047	163072.921875
2299.255859	162978.312500
2298.388672	162716.578125
2297.520508	162895.765625
2296.653320	163020.125000
2295.785156	163132.921875
2294.916992	163274.468750
2294.047852	163217.296875
2293.179688	163137.109375
2292.310547	163114.500000
2291.442383	162850.218750
2290.573242	163086.562500
2289.704102	162992.046875
2288.833984	163219.640625
2287.964844	163340.750000
2287.094727	162967.390625
2286.225586	163091.375000
2285.355469	163137.703125
2284.485352	163416.718750
2283.614258	163124.015625
2282.744141	163333.984375
2281.873047	163133.281250
2281.002930	163231.203125
2280.131836	163151.125000
2279.259766	163033.765625
2278.388672	163123.015625
2277.517578	163226.562500
2276.645508	163223.937500
2275.773438	163083.687500
2274.901367	163098.281250
2274.029297	163003.953125
2273.157227	163070.125000
2272.284180	163184.984375
2271.412109	163102.125000
2270.539063	163079.421875
2269.666016	163208.500000
2268.792969	163031.171875
2267.918945	163145.890625
2267.045898	163283.437500
2266.171875	163206.328125
2265.297852	163014.796875
2264.423828	163063.609375
2263.549805	163226.765625
2262.675781	163272.640625
2261.800781	163407.093750
2260.925781	163312.843750
2260.050781	163321.500000
2259.175781	163301.578125
2258.300781	163330.203125
2257.425781	163393.093750
2256.549805	163407.390625
2255.673828	163341.765625
2254.797852	163338.937500
2253.921875	163624.312500
2253.045898	163384.609375
2252.169922	163370.343750
2251.292969	163244.843750
2250.416016	163390.265625
2249.539063	163358.875000
2248.662109	163338.890625
2247.785156	163558.281250
2246.907227	163370.140625
2246.030273	163424.203125
2245.152344	163304.500000
2244.274414	163344.312500
2243.396484	163418.250000
2242.517578	163304.281250
2241.639648	163238.734375
2240.760742	163400.843750
2239.881836	163238.562500
2239.002930	163326.640625
2238.124023	163360.640625
2237.245117	163317.843750
2236.365234	163221.046875
2235.485352	163203.875000
2234.605469	163135.531250
2233.725586	163291.656250
2232.845703	163163.671875
2231.965820	163200.437500
2231.084961	163248.546875
2230.204102	163194.421875
2229.323242	163154.500000
2228.442383	163290.531250
2227.561523	163208.031250
2226.679688	163026.265625
2225.798828	163043.109375
2224.916992	163093.953125
2224.035156	163037.031250
2223.153320	162795.890625
2222.270508	162982.765625
2221.388672	163008.046875
2220.505859	162954.000000
2219.623047	163064.234375
2218.740234	162922.390625
2217.857422	162939.140625
2216.974609	162950.203125
2216.090820	162856.562500
2215.207031	162853.484375
2214.324219	162793.812500
2213.439453	162864.265625
2212.555664	162781.984375
2211.671875	162866.531250
2210.787109	162707.937500
2209.902344	162620.062500
2209.017578	162591.546875
2208.132813	162551.718750
2207.248047	162607.953125
2206.363281	162627.437500
2205.477539	162483.140625
2204.591797	162471.578125
2203.706055	162524.921875
2202.820313	162459.718750
2201.934570	162434.031250
2201.047852	162394.234375
2200.161133	162393.937500
2199.274414	162373.890625
2198.387695	162376.406250
2197.500977	162361.984375
2196.614258	162246.125000
2195.726563	162288.078125
2194.838867	162197.593750
2193.952148	162262.062500
2193.063477	162261.718750
2192.175781	162151.578125
2191.288086	162351.093750
2190.399414	162215.625000
2189.510742	162015.484375
2188.622070	162116.437500
2187.733398	162121.703125
2186.844727	162202.875000
2185.955078	162143.437500
2185.066406	162140.250000
2184.176758	162100.500000
2183.287109	161956.796875
2182.397461	161984.500000
2181.506836	162068.390625
2180.617188	161997.765625
2179.726563	161938.390625
2178.835938	161996.937500
2177.945313	161960.015625
2177.054688	161864.171875
2176.163086	162091.015625
2175.272461	161843.703125
2174.380859	161862.906250
2173.489258	162011.078125
2172.597656	161862.015625
2171.705078	161819.515625
2170.813477	161981.593750
2169.920898	161902.640625
2169.028320	161860.140625
2168.135742	161736.406250
2167.243164	161803.140625
2166.350586	161749.453125
2165.457031	161748.953125
2164.563477	161678.500000
2163.669922	161733.953125
2162.776367	161685.890625
2161.882813	161718.937500
2160.989258	161743.578125
2160.094727	161726.265625
2159.200195	161588.750000
2158.305664	161694.421875
2157.411133	161529.000000
2156.516602	161645.812500
2155.621094	161603.343750
2154.725586	161639.093750
2153.831055	161616.171875
2152.935547	161610.015625
2152.039063	161500.578125
2151.143555	161614.406250
2150.247070	161560.796875
2149.351563	161496.031250
2148.455078	161626.515625
2147.558594	161500.406250
2146.661133	161510.937500
2145.764648	161535.390625
2144.867188	161587.703125
2143.969727	161522.968750
2143.072266	161355.171875
2142.174805	161644.203125
2141.277344	161701.984375
2140.378906	161495.250000
2139.481445	161505.703125
2138.583008	161552.328125
2137.684570	161495.968750
2136.785156	161584.281250
2135.886719	161522.359375
2134.987305	161563.343750
2134.088867	161501.437500
2133.189453	161517.390625
2132.289063	161502.734375
2131.389648	161524.218750
2130.490234	161465.109375
2129.589844	161453.234375
2128.689453	161582.984375
2127.789063	161576.625000
2126.888672	161453.671875
2125.987305	161422.343750
2125.086914	161396.578125
2124.185547	161509.531250
2123.284180	161447.671875
2122.382813	161530.046875
2121.481445	161515.328125
2120.579102	161406.359375
2119.677734	161618.937500
2118.775391	161443.468750
2117.873047	161434.296875
2116.970703	161580.234375
2116.067383	161396.531250
2115.165039	161284.890625
2114.261719	161430.750000
2113.358398	161374.500000
2112.455078	161343.156250
2111.551758	161361.625000
2110.647461	161308.140625
2109.744141	161268.515625
2108.839844	161350.546875
2107.935547	161344.093750
2107.031250	161285.093750
2106.125977	161378.125000
2105.221680	161344.000000
2104.316406	161290.546875
2103.411133	161275.765625
2102.505859	161299.640625
2101.600586	161403.578125
2100.695313	161181.734375
2099.789063	161249.750000
2098.882813	161279.109375
2097.976563	161217.406250
2097.070313	161177.781250
2096.164063	161223.656250
2095.256836	161189.531250
2094.350586	161213.312500
2093.443359	161104.796875
2092.536133	161073.453125
2091.627930	161130.281250
2090.720703	161211.859375
2089.812500	161053.812500
2088.905273	161094.062500
2087.997070	161070.984375
2087.088867	160976.328125
2086.179688	161063.328125
2085.271484	161059.500000
2084.362305	161102.406250
2083.453125	161016.046875
2082.543945	161113.937500
2081.634766	160967.109375
2080.725586	160957.750000
2079.815430	161132.515625
2078.905273	161051.687500
2077.995117	160981.859375
2077.084961	160972.484375
2076.174805	161020.765625
2075.263672	161096.468750
2074.353516	160774.125000
2073.442383	160915.703125
2072.531250	160952.937500
2071.620117	160940.781250
2070.708008	160975.250000
2069.796875	160946.625000
2068.884766	160920.734375
2067.972656	160905.828125
2067.060547	160896.390625
2066.148438	160955.437500
2065.235352	160954.203125
2064.322266	160799.578125
2063.410156	160995.500000
2062.496094	160775.203125
2061.583008	160817.765625
2060.669922	160838.406250
2059.755859	160932.906250
2058.841797	160715.484375
2057.928711	160695.078125
2057.013672	160849.687500
2056.099609	160665.203125
2055.185547	160792.406250
2054.270508	160575.187500
2053.355469	160655.890625
2052.440430	160815.781250
2051.525391	160737.953125
2050.609375	160714.781250
2049.694336	160716.171875
2048.778320	160758.515625
2047.862305	160680.734375
2046.946289	160676.656250
2046.030273	160751.687500
2045.113281	160698.484375
2044.196289	160653.468750
2043.279297	160649.359375
2042.362305	160607.078125
2041.445313	160575.718750
2040.528320	160694.234375
2039.610352	160572.937500
2038.692383	160538.843750
2037.774414	160657.265625
2036.856445	160563.250000
2035.938477	160632.609375
2035.019531	160609.390625
2034.101563	160482.750000
2033.182617	160470.437500
2032.263672	160577.812500
2031.343750	160486.593750
2030.424805	160468.812500
2029.504883	160527.156250
2028.584961	160425.109375
2027.665039	160219.812500
2026.745117	160530.843750
2025.825195	160466.843750
2024.904297	160321.390625
2023.984375	160390.515625
2023.063477	160475.890625
2022.142578	160395.640625
2021.220703	160415.828125
2020.299805	160313.906250
2019.377930	160388.343750
2018.456055	160294.578125
2017.534180	160187.281250
2016.612305	160356.562500
2015.690430	160260.125000
2014.767578	160282.968750
2013.844727	160216.359375
2012.921875	160363.812500
2011.999023	160191.562500
2011.076172	160143.953125
2010.152344	160120.734375
2009.229492	160257.218750
2008.305664	160147.343750
2007.381836	160061.859375
2006.457031	160106.265625
2005.533203	160012.703125
2004.608398	160046.265625
2003.684570	160063.578125
2002.759766	160056.562500
2001.833984	159968.437500
2000.909180	160047.890625
1999.984375	159873.343750
1999.058594	160176.953125
1998.132813	160007.843750
1997.207031	160052.078125
1996.280273	159920.828125
1995.354492	160073.015625
1994.427734	160022.750000
1993.500977	160023.750000
1992.574219	159873.687500
1991.647461	159920.562500
1990.720703	159970.093750
1989.792969	159857.843750
1988.865234	159885.796875
1987.937500	159873.296875
1987.009766	159949.718750
1986.082031	159710.921875
1985.153320	159752.312500
1984.225586	159828.671875
1983.296875	159856.546875
1982.368164	159765.968750
1981.438477	159793.828125
1980.509766	159638.703125
1979.580078	159580.468750
1978.651367	159573.343750
1977.720703	159654.968750
1976.791016	159567.171875
1975.861328	159648.734375
1974.930664	159649.640625
1974.000977	159548.437500
1973.070313	159570.843750
1972.138672	159577.109375
1971.208008	159470.578125
1970.277344	159549.343750
1969.345703	159354.265625
1968.414063	159483.984375
1967.482422	159398.984375
1966.550781	159399.875000
1965.618164	159368.546875
1964.686523	159299.703125
1963.753906	159421.218750
1962.821289	159325.562500
1961.887695	159321.046875
1960.955078	159321.890625
1960.022461	159298.609375
1959.088867	158999.453125
1958.155273	159302.937500
1957.221680	159239.484375
1956.287109	159234.953125
1955.353516	159115.312500
1954.418945	159092.062500
1953.484375	159079.500000
1952.549805	159214.046875
1951.615234	159089.140625
1950.679688	159047.156250
1949.745117	159128.140625
1948.809570	159024.671875
1947.874023	159012.093750
1946.938477	158978.125000
1946.001953	158957.531250
1945.066406	158977.000000
1944.129883	159055.187500
1943.193359	158887.734375
1942.256836	158835.109375
1941.319336	158817.187500
1940.382813	158849.953125
1939.445313	158810.671875
1938.507813	158838.078125
1937.570313	158724.140625
1936.632813	158738.203125
1935.694336	158773.578125
1934.756836	158641.046875
1933.818359	158676.406250
1932.879883	158687.781250
1931.940430	158605.921875
1931.001953	158665.203125
1930.062500	158620.640625
1929.124023	158549.453125
1928.184570	158502.250000
1927.244141	158468.359375
1926.304688	158596.734375
1925.365234	158602.703125
1924.424805	158502.312500
1923.484375	158393.968750
1922.543945	158320.218750
1921.602539	158538.812500
1920.662109	158369.390625
1919.720703	158399.265625
1918.779297	158330.843750
1917.837891	158334.140625
1916.896484	158273.703125
1915.954102	158359.281250
1915.012695	158256.390625
1914.070313	158355.187500
1913.127930	158265.593750
1912.185547	158205.187500
1911.242188	158150.109375
1910.299805	158060.578125
1909.356445	158100.953125
1908.413086	158199.609375
1907.469727	158202.828125
1906.525391	158100.078125
1905.582031	158158.921875
1904.637695	157984.703125
1903.693359	157948.218750
1902.749023	157985.859375
1901.804688	157922.906250
1900.859375	158005.500000
1899.914063	157836.734375
1898.968750	157908.718750
1898.023438	157970.078125
1897.078125	157933.593750
1896.132813	157844.234375
1895.186523	157810.406250
1894.240234	157792.453125
1893.293945	157750.703125
1892.347656	157711.609375
1891.400391	157598.578125
1890.454102	157596.468750
1889.506836	157573.250000
1888.559570	157610.718750
1887.612305	157682.468750
1886.664063	157569.515625
1885.716797	157675.515625
1884.768555	157620.609375
1883.820313	157468.171875
1882.872070	157360.578125
1881.923828	157366.359375
1880.974609	157366.859375
1880.025391	157356.812500
1879.076172	157362.562500
1878.126953	157331.437500
1877.177734	157384.562500
1876.227539	157300.781250
1875.278320	157348.609375
1874.328125	157317.468750
1873.377930	157225.828125
1872.426758	157134.218750
1871.476563	157226.718750
1870.525391	157085.171875
1869.574219	157188.140625
1868.623047	157209.593750
1867.671875	157157.437500
1866.720703	157110.562500
1865.768555	156990.140625
1864.816406	157064.109375
1863.864258	157069.765625
1862.912109	156910.015625
1861.959961	156913.062500
1861.006836	156819.000000
1860.053711	156906.000000
1859.100586	156882.781250
1858.147461	156754.671875
1857.194336	156760.312500
1856.240234	156823.625000
1855.287109	156737.515625
1854.333008	156656.656250
1853.377930	156698.968750
1852.423828	156780.546875
1851.469727	156681.375000
1850.514648	156718.390625
1849.559570	156587.843750
1848.604492	156444.250000
1847.649414	156499.578125
1846.693359	156617.671875
1845.737305	156542.140625
1844.782227	156534.640625
1843.825195	156435.609375
1842.869141	156422.875000
1841.913086	156357.859375
1840.956055	156418.312500
1839.999023	156319.343750
1839.041992	156369.296875
1838.084961	156267.765625
1837.126953	156315.078125
1836.169922	156291.890625
1835.211914	156253.046875
1834.253906	156287.265625
1833.295898	156224.937500
1832.336914	156212.171875
1831.378906	156178.546875
1830.419922	156064.109375
1829.460938	156082.640625
1828.501953	156168.937500
1827.541992	156075.390625
1826.583008	156039.171875
1825.623047	156091.531250
1824.663086	155951.156250
1823.703125	155943.609375
1822.743164	155842.328125
1821.782227	155855.609375
1820.821289	155999.000000
1819.860352	155884.750000
1818.899414	155788.734375
1817.938477	155770.781250
1816.976563	155890.625000
1816.015625	155675.062500
1815.053711	155654.515625
1814.090820	155769.093750
1813.128906	155899.203125
1812.166992	155629.218750
1811.204102	155756.703125
1810.241211	155569.937500
1809.278320	155500.046875
1808.315430	155534.015625
1807.351563	155443.390625
1806.387695	155531.812500
1805.424805	155570.906250
1804.459961	155462.156250
1803.496094	155407.890625
1802.532227	155382.140625
1801.567383	155340.859375
1800.602539	155079.296875
1799.637695	155167.625000
1798.672852	155242.937500
1797.707031	155263.843750
1796.742188	155155.250000
1795.776367	155106.234375
1794.810547	154966.640625
1793.844727	155295.500000
1792.877930	155021.359375
1791.912109	155135.343750
1790.945313	155001.000000
1789.978516	154995.984375
1789.010742	155096.953125
1788.043945	155047.968750
1787.076172	154944.718750
1786.109375	155058.531250
1785.141602	154963.062500
1784.172852	154960.593750
1783.205078	154878.062500
1782.236328	154774.921875
1781.267578	154806.015625
1780.298828	154759.671875
1779.330078	154646.250000
1778.361328	154672.171875
1777.391602	154713.546875
1776.421875	154713.656250
1775.452148	154708.578125
1774.482422	154543.687500
1773.512695	154577.296875
1772.541992	154464.015625
1771.571289	154541.406250
1770.600586	154497.703125
1769.629883	154554.421875
1768.659180	154423.187500
1767.687500	154415.546875
1766.715820	154461.937500
1765.745117	154315.328125
1764.772461	154346.265625
1763.800781	154307.750000
1762.828125	154382.375000
1761.856445	154312.984375
1760.883789	154282.187500
1759.910156	154158.875000
1758.937500	154140.937500
1757.963867	154202.640625
1756.991211	154194.953125
1756.017578	154066.593750
1755.043945	154192.421875
1754.069336	154043.546875
1753.095703	153992.250000
1752.121094	153966.625000
1751.146484	154010.250000
1750.171875	153966.656250
1749.196289	153976.921875
1748.221680	153876.937500
1747.246094	153830.796875
1746.270508	153833.375000
1745.294922	153769.312500
1744.319336	153843.609375
1743.342773	153789.796875
1742.366211	153776.984375
1741.389648	153776.953125
1740.413086	153651.500000
1739.436523	153659.171875
1738.458984	153697.515625
1737.481445	153687.250000
1736.503906	153712.781250
1735.526367	153503.031250
1734.548828	153543.906250
1733.570313	153515.750000
1732.592773	153474.812500
1731.614258	153477.328125
1730.634766	153513.031250
1729.656250	153308.640625
1728.676758	153408.187500
1727.698242	153208.984375
1726.718750	153428.453125
1725.739258	153339.046875
1724.758789	153364.484375
1723.779297	153170.515625
1722.798828	153356.640625
1721.818359	153183.140625
1720.837891	153050.484375
1719.856445	153137.078125
1718.875977	153055.437500
1717.894531	153172.562500
1716.913086	153070.546875
1715.931641	152968.578125
1714.949219	152983.765625
1713.967773	153001.484375
1712.985352	153126.093750
1712.002930	152904.546875
1711.020508	152863.718750
1710.037109	152774.578125
1709.054688	152774.484375
1708.071289	152782.000000
1707.087891	152799.671875
1706.104492	152779.203125
1705.121094	152667.250000
1704.136719	152613.781250
1703.152344	152555.234375
1702.167969	152661.781250
1701.183594	152590.531250
1700.198242	152511.687500
1699.213867	152554.703125
1698.228516	152638.296875
1697.243164	152516.343750
1696.257813	152526.328125
1695.271484	152500.796875
1694.286133	152396.656250
1693.299805	152388.890625
1692.313477	152391.265625
1691.327148	152459.500000
1690.339844	152357.953125
1689.353516	152345.109375
1688.366211	152289.187500
1687.378906	152291.531250
1686.390625	152296.406250
1685.403320	152217.734375
1684.415039	152209.937500
1683.426758	152204.671875
1682.438477	152108.328125
1681.450195	152017.078125
1680.461914	152080.093750
1679.472656	152024.265625
1678.483398	152041.734375
1677.494141	151887.375000
1676.504883	151940.218750
1675.514648	151909.687500
1674.525391	152000.375000
1673.535156	151954.687500
1672.544922	151785.296875
1671.553711	151992.031250
1670.563477	151873.156250
1669.572266	151766.937500
1668.581055	151754.078125
1667.589844	151741.218750
1666.598633	151988.046875
1665.606445	151715.484375
1664.614258	151780.734375
1663.623047	151672.093750
1662.629883	151744.875000
1661.637695	151696.718750
1660.645508	151605.765625
1659.652344	151562.671875
1658.659180	151625.312500
1657.666016	151549.500000
1656.671875	151584.421875
1655.678711	151493.531250
1654.684570	151442.921875
1653.690430	151392.312500
1652.696289	151464.921875
1651.701172	151328.843750
1650.707031	151268.218750
1649.711914	151237.765625
1648.716797	151222.375000
1647.721680	151264.765625
1646.725586	151294.578125
1645.730469	151178.734375
1644.734375	151178.406250
1643.738281	151198.140625
1642.742188	151087.390625
1641.745117	151124.671875
1640.749023	151101.750000
1639.751953	151021.140625
1638.754883	151203.828125
1637.756836	150987.859375
1636.759766	150967.453125
1635.761719	150924.484375
1634.763672	150876.531250
1633.765625	151054.000000
1632.767578	150915.859375
1631.768555	150920.484375
1630.770508	150834.984375
1629.771484	150914.671875
1628.772461	150829.187500
1627.772461	150766.250000
1626.773438	150710.828125
1625.773438	150710.421875
1624.773438	150632.515625
1623.773438	150694.609375
1622.773438	150484.265625
1621.772461	150528.859375
1620.771484	150498.484375
1619.770508	150503.078125
1618.769531	150482.687500
1617.768555	150654.531250
1616.766602	150554.234375
1615.764648	150361.625000
1614.762695	150398.625000
1613.760742	150353.296875
1612.758789	150312.953125
1611.755859	150377.359375
1610.752930	150304.609375
1609.750000	150393.890625
1608.747070	150181.593750
1607.743164	150151.250000
1606.740234	150138.343750
1605.736328	150090.578125
1604.732422	150030.375000
1603.727539	149977.656250
1602.723633	150046.906250
1601.718750	149976.765625
1600.713867	149906.640625
1599.708984	149876.343750
1598.704102	149883.343750
1597.698242	149877.906250
1596.692383	149812.796875
1595.686523	149891.875000
1594.680664	149772.093750
1593.674805	149831.250000
1592.667969	149798.468750
1591.661133	149822.796875
1590.654297	149655.937500
1589.647461	149764.671875
1588.640625	149776.578125
1587.632813	149751.234375
1586.625000	149554.703125
1585.617188	149561.640625
1584.609375	149652.906250
1583.601563	149461.437500
1582.592773	149542.750000
1581.583984	149537.265625
1580.575195	149474.781250
1579.566406	149424.687500
1578.556641	149396.921875
1577.546875	149411.250000
1576.537109	149217.578125
1575.527344	149318.546875
1574.517578	149167.031250
1573.506836	149235.796875
1572.497070	149158.562500
1571.486328	149316.343750
1570.474609	149155.015625
1569.463867	149097.593750
1568.452148	149040.203125
1567.441406	149002.578125
1566.429688	148918.015625
1565.416992	148981.718750
1564.405273	148790.968750
1563.392578	148894.171875
1562.379883	148886.203125
1561.367188	148967.093750
1560.354492	148801.156250
1559.341797	148761.109375
1558.328125	148780.281250
1557.314453	148841.375000
1556.300781	148833.375000
1555.286133	148677.453125
1554.272461	148595.531250
1553.257813	148617.140625
1552.243164	148515.531250
1551.228516	148542.062500
1550.213867	148642.453125
1549.198242	148609.828125
1548.182617	148495.953125
1547.166992	148313.218750
1546.151367	148354.468750
1545.134766	148435.078125
1544.119141	148203.234375
1543.102539	148372.359375
1542.085938	148374.203125
1541.068359	148388.328125
1540.051758	148306.578125
1539.034180	148237.140625
1538.016602	148234.062500
1536.999023	148233.421875
1535.981445	148107.531250
1534.962891	147966.937500
1533.944336	148030.171875
1532.925781	147990.281250
1531.907227	148026.468750
1530.888672	148089.609375
1529.869141	147927.062500
1528.849609	147933.781250
1527.830078	147869.375000
1526.810547	147819.703125
1525.791016	147873.000000
1524.770508	147906.640625
1523.750000	147879.015625
1522.729492	147640.734375
1521.708984	147711.125000
1520.687500	147614.984375
1519.666016	147638.812500
1518.644531	147706.671875
1517.623047	147429.484375
1516.601563	147573.187500
1515.579102	147743.734375
1514.556641	147608.531250
1513.534180	147441.562500
1512.511719	147560.671875
1511.489258	147518.421875
1510.465820	147437.093750
1509.442383	147375.312500
1508.418945	147377.062500
1507.395508	147322.640625
1506.371094	147341.484375
1505.346680	147279.750000
1504.322266	147257.078125
1503.297852	147261.250000
1502.273438	146894.609375
1501.248047	146923.218750
1500.222656	147095.687500
1499.197266	147136.437500
1498.171875	147069.890625
1497.146484	147095.984375
1496.120117	147056.265625
1495.093750	147101.812500
1494.067383	146833.156250
1493.041016	146764.265625
1492.013672	146938.859375
1490.987305	146867.515625
1489.959961	146861.921875
1488.931641	146941.468750
1487.904297	146836.093750
1486.876953	146738.062500
1485.848633	146725.156250
1484.820313	146649.046875
1483.791016	146779.546875
1482.762695	146696.156250
1481.733398	146707.531250
1480.704102	146626.593750
1479.674805	146492.250000
1478.645508	146627.468750
1477.616211	146658.250000
1476.585938	146354.046875
1475.555664	146467.359375
1474.525391	146469.000000
1473.494141	146380.890625
1472.463867	146186.093750
1471.432617	146362.343750
1470.401367	146397.921875
1469.370117	146225.031250
1468.337891	146413.265625
1467.305664	146201.656250
1466.274414	146210.562500
1465.241211	146214.593750
1464.208984	146189.578125
1463.176758	146179.078125
1462.143555	146187.937500
1461.110352	146141.140625
1460.077148	145985.468750
1459.042969	146025.781250
1458.009766	145879.875000
1456.975586	146082.156250
1455.941406	145982.203125
1454.906250	145894.359375
1453.872070	145980.515625
1452.836914	146003.812500
1451.801758	145916.000000
1450.766602	145900.656250
1449.731445	145786.328125
1448.695313	145729.953125
1447.659180	145857.015625
1446.623047	145771.687500
1445.586914	145700.859375
1444.550781	145733.765625
1443.513672	145785.937500
1442.476563	145596.984375
1441.439453	145617.812500
1440.402344	145672.359375
1439.364258	145681.093750
1438.327148	145624.781250
1437.289063	145501.062500
1436.250000	145439.968750
1435.211914	145523.343750
1434.172852	145351.546875
1433.134766	145521.515625
1432.094727	145340.140625
1431.055664	145348.875000
1430.016602	145391.250000
1428.976563	145308.578125
1427.936523	145319.671875
1426.896484	145323.562500
1425.856445	145178.453125
1424.815430	145158.312500
1423.774414	145142.984375
1422.733398	145182.890625
1421.692383	145069.093750
1420.651367	145082.578125
1419.609375	145091.234375
1418.567383	144874.343750
1417.525391	145038.953125
1416.483398	144951.656250
1415.440430	144965.109375
1414.397461	144865.859375
1413.354492	144814.578125
1412.311523	144957.437500
1411.268555	144827.062500
1410.224609	144763.828125
1409.180664	144741.312500
1408.136719	144699.656250
1407.092773	144669.968750
1406.047852	144613.953125
1405.002930	144644.109375
1403.958008	144559.390625
1402.913086	144529.734375
1401.868164	144516.812500
1400.822266	144346.062500
1399.776367	144502.906250
1398.730469	144506.703125
1397.684570	144455.531250
1396.638672	144449.765625
1395.591797	144365.171875
1394.544922	144342.687500
1393.498047	144346.468750
1392.450195	144218.953125
1391.403320	144289.562500
1390.355469	144171.640625
1389.307617	144402.062500
1388.259766	144214.968750
1387.210938	144113.796875
1386.163086	144079.406250
1385.114258	144250.046875
1384.064453	144127.453125
1383.015625	143988.218750
1381.966797	143970.531250
1380.916992	144048.125000
1379.867188	144047.078125
1378.816406	144031.750000
1377.766602	144021.171875
1376.715820	143855.906250
1375.665039	143735.906250
1374.614258	143844.328125
1373.563477	143717.218750
1372.511719	143649.609375
1371.460938	143765.093750
1370.408203	143830.593750
1369.356445	143741.578125
1368.304688	143567.078125
1367.251953	143618.296875
1366.199219	143598.234375
1365.146484	143525.937500
1364.093750	143513.015625
1363.040039	143547.562500
1361.986328	143394.609375
1360.932617	143490.843750
1359.878906	143473.156250
1358.825195	143431.750000
1357.770508	143485.203125
1356.715820	143434.312500
1355.661133	143520.906250
1354.606445	143375.234375
1353.550781	143253.312500
1352.495117	143328.015625
1351.439453	143203.765625
1350.383789	143183.718750
1349.327148	143170.781250
1348.271484	143205.187500
1347.214844	143066.828125
1346.158203	143134.328125
1345.100586	143166.328125
1344.043945	142926.343750
1342.986328	143057.656250
1341.928711	142995.062500
1340.871094	142937.218750
1339.812500	142903.015625
1338.754883	142927.875000
1337.696289	142896.046875
1336.637695	142909.062500
1335.578125	142702.531250
1334.519531	142784.031250
1333.459961	142780.531250
1332.400391	142817.125000
1331.339844	142679.156250
1330.280273	142675.656250
1329.219727	142705.156250
1328.159180	142484.750000
1327.098633	142745.234375
1326.038086	142678.062500
1324.976563	142589.718750
1323.915039	142418.953125
1322.853516	142552.031250
1321.791992	142494.343750
1320.730469	142453.140625
1319.667969	142419.015625
1318.605469	142375.484375
1317.542969	142393.125000
1316.479492	142269.625000
1315.416992	142362.515625
1314.353516	142182.640625
1313.290039	142270.781250
1312.225586	142318.937500
1311.162109	142179.093750
1310.097656	142142.656250
1309.033203	142052.218750
1307.968750	142013.453125
1306.903320	142124.968750
1305.838867	142034.546875
1304.773438	142103.750000
1303.708008	142050.906250
1302.642578	141927.687500
1301.576172	141818.609375
1300.509766	141857.265625
1299.443359	141879.500000
1298.376953	141852.500000
1297.309570	141844.234375
1296.243164	141707.125000
1295.175781	141858.156250
1294.108398	141655.500000
1293.040039	141551.265625
1291.972656	141643.703125
1290.904297	141651.828125
1289.835938	141549.968750
1288.767578	141593.187500
1287.698242	141470.312500
1286.628906	141543.921875
1285.559570	141615.140625
1284.490234	141496.984375
1283.420898	141418.609375
1282.350586	141548.203125
1281.280273	141388.062500
1280.209961	141319.062500
1279.139648	141280.453125
1278.068359	141293.203125
1276.998047	141256.921875
1275.926758	141150.640625
1274.854492	141205.390625
1273.783203	141248.437500
1272.710938	141270.468750
1271.638672	141103.609375
1270.566406	141125.640625
1269.494141	141126.687500
1268.420898	141022.859375
1267.348633	140970.312500
1266.274414	141020.281250
1265.201172	141018.984375
1264.127930	140791.828125
1263.053711	140967.468750
1261.979492	140947.546875
1260.905273	140892.703125
1259.830078	140914.656250
1258.755859	140683.062500
1257.680664	140760.843750
1256.605469	140854.843750
1255.529297	140686.156250
1254.454102	140677.859375
1253.377930	140639.375000
1252.301758	140679.859375
1251.225586	140659.953125
1250.148438	140593.593750
1249.072266	140536.546875
1247.995117	140570.031250
1246.917969	140441.046875
1245.839844	140414.203125
1244.762695	140440.703125
1243.684570	140346.593750
1242.606445	140400.906250
1241.527344	140285.968750
1240.449219	140280.000000
1239.370117	140392.203125
1238.291016	140335.218750
1237.211914	140250.468750
1236.131836	140105.531250
1235.052734	140127.343750
1233.972656	140151.453125
1232.892578	140145.453125
1231.811523	140063.093750
1230.731445	139990.015625
1229.650391	140011.796875
1228.569336	140033.546875
1227.488281	139988.250000
1226.406250	139889.781250
1225.324219	139943.875000
1224.242188	139905.515625
1223.160156	139832.531250
1222.078125	139893.500000
1220.995117	139785.890625
1219.912109	139676.000000
1218.829102	139660.781250
1217.746094	139712.468750
1216.662109	139750.296875
1215.578125	139548.203125
1214.494141	139609.093750
1213.410156	139547.750000
1212.325195	139622.421875
1211.240234	139399.750000
1210.155273	139525.109375
1209.070313	139392.375000
1207.985352	139552.218750
1206.899414	139511.625000
1205.813477	139374.359375
1204.727539	139395.953125
1203.641602	139258.750000
1202.554688	139303.359375
1201.467773	139272.031250
1200.380859	139254.500000
1199.293945	139294.468750
1198.206055	139242.437500
1197.119141	139211.109375
1196.031250	139023.531250
1194.942383	139063.468750
1193.854492	139220.531250
1192.765625	139060.593750
1191.676758	138990.265625
1190.587891	139048.515625
1189.499023	138982.781250
1188.409180	138884.953125
1187.319336	138936.281250
1186.229492	138985.281250
1185.139648	138724.656250
1184.048828	138775.953125
1182.958008	138772.218750
1181.867188	138711.171875
1180.776367	138801.359375
1179.685547	138715.125000
1178.593750	138665.546875
1177.501953	138645.765625
1176.410156	138628.265625
1175.317383	138475.703125
1174.225586	138572.656250
1173.132813	138436.187500
1172.040039	138517.062500
1170.946289	138412.671875
1169.853516	138470.640625
1168.759766	138416.562500
1167.666016	138383.078125
1166.572266	138365.593750
1165.477539	138334.390625
1164.382813	138335.171875
1163.288086	138285.703125
1162.193359	138302.468750
1161.098633	138200.515625
1160.002930	138141.953125
1158.907227	138181.531250
1157.811523	138088.750000
1156.714844	138011.984375
1155.619141	137996.812500
1154.522461	138031.781250
1153.425781	138034.828125
1152.328125	137994.562500
1151.231445	137983.921875
1150.133789	137957.328125
1149.036133	137844.203125
1147.938477	137792.593750
1146.839844	137827.500000
1145.741211	137823.687500
1144.642578	137774.359375
1143.543945	137820.609375
1142.445313	137705.312500
1141.345703	137772.000000
1140.246094	137611.281250
1139.146484	137612.031250
1138.045898	137567.296875
1136.946289	137497.593750
1135.845703	137550.578125
1134.745117	137524.046875
1133.643555	137556.546875
1132.542969	137589.031250
1131.441406	137351.375000
1130.339844	137367.984375
1129.238281	137459.453125
1128.135742	137451.062500
1127.033203	137404.125000
1125.930664	137291.421875
1124.828125	137314.781250
1123.725586	137297.343750
1122.622070	137304.812500
1121.518555	137187.671875
1120.415039	137163.437500
1119.310547	137170.906250
1118.207031	137180.625000
1117.102539	137027.359375
1115.998047	137000.875000
1114.892578	137049.078125
1113.788086	136839.343750
1112.682617	136901.109375
1111.577148	136953.781250
1110.470703	136857.218750
1109.365234	136851.109375
1108.258789	136962.500000
1107.152344	136811.750000
1106.045898	136783.031250
1104.938477	136808.515625
1103.831055	136700.765625
1102.723633	136674.328125
1101.616211	136679.484375
1100.508789	136634.984375
1099.400391	136644.640625
1098.291992	136631.734375
1097.183594	136690.984375
1096.074219	136547.281250
1094.965820	136466.750000
1093.856445	136548.515625
1092.747070	136533.343750
1091.636719	136459.593750
1090.527344	136480.468750
1089.416992	136348.203125
1088.306641	136348.812500
1087.196289	136358.421875
1086.084961	136341.000000
1084.973633	136197.593750
1083.862305	136279.187500
1082.750977	136252.781250
1081.638672	136118.437500
1080.526367	136087.562500
1079.414063	136094.906250
1078.301758	136019.093750
1077.189453	136089.328125
1076.076172	136044.984375
1074.962891	136018.593750
1073.849609	135965.281250
1072.735352	135947.890625
1071.622070	135948.468750
1070.507813	135991.656250
1069.393555	135819.453125
1068.278320	135781.890625
1067.164063	135807.125000
1066.048828	135836.828125
1064.933594	135781.328125
1063.817383	135777.390625
1062.702148	135634.531250
1061.585938	135661.953125
1060.469727	135644.578125
1059.352539	135654.078125
1058.236328	135728.468750
1057.119141	135478.312500
1056.001953	135496.750000
1054.884766	135553.218750
1053.766602	135426.234375
1052.648438	135406.640625
1051.530273	135463.062500
1050.412109	135405.437500
1049.292969	135296.453125
1048.174805	135375.171875
1047.055664	135268.437500
1045.936523	135260.031250
1044.816406	135238.203125
1043.696289	135240.937500
1042.576172	135214.640625
1041.456055	135128.109375
1040.335938	135005.890625
1039.214844	135182.625000
1038.093750	135038.140625
1036.972656	134944.984375
1035.851563	134994.531250
1034.729492	134986.109375
1033.607422	134926.421875
1032.485352	134933.578125
1031.363281	134896.187500
1030.240234	134856.578125
1029.117188	134863.734375
1027.994141	134810.765625
1026.871094	134748.921875
1025.747070	134780.546875
1024.623047	134729.828125
1023.499023	134756.984375
1022.375000	134715.171875
1021.250000	134780.078125
1020.125000	134584.906250
1019.000000	134545.375000
1017.875000	134674.671875
1016.750000	134515.171875
1015.624023	134528.937500
1014.498047	134502.718750
1013.371094	134443.218750
1012.245117	134576.796875
1011.118164	134437.406250
1009.991211	134362.406250
1008.864258	134367.265625
1007.736328	134314.453125
1006.609375	134341.468750
1005.481445	134426.109375
1004.353516	134377.718750
1003.224609	134218.578125
1002.095703	134303.156250
1000.966797	134135.218750
999.837891	134215.328125
998.708984	134074.031250
997.579102	134019.109375
996.449219	134134.562500
995.319336	134006.625000
994.189453	133976.046875
993.058594	133781.828125
991.927734	133899.421875
990.796875	133955.078125
989.665039	133802.953125
988.534180	133809.968750
987.402344	133881.031250
986.270508	133843.843750
985.137695	133797.828125
984.005859	133820.265625
982.873047	133811.781250
981.740234	133723.843750
980.606445	133660.203125
979.473633	133660.562500
978.339844	133599.156250
977.206055	133590.687500
976.071289	133551.343750
974.937500	133542.875000
973.802734	133494.734375
972.667969	133470.828125
971.533203	133407.296875
970.397461	133396.609375
969.261719	133458.593750
968.125977	133337.843750
966.990234	133408.578125
965.853516	133232.875000
964.716797	133268.406250
963.580078	133297.312500
962.443359	133251.437500
961.305664	133271.515625
960.168945	133186.093750
959.031250	133232.531250
957.892578	133160.328125
956.754883	133074.953125
955.616211	133077.437500
954.477539	132996.500000
953.338867	132992.406250
952.199219	132839.078125
951.059570	132977.609375
949.919922	132870.406250
948.780273	132949.640625
947.639648	132914.828125
946.500000	132882.203125
945.359375	132803.562500
944.217773	132698.656250
943.077148	132747.140625
941.935547	132756.156250
940.793945	132664.437500
939.652344	132605.593750
938.509766	132667.156250
937.367188	132772.453125
936.224609	132444.468750
935.082031	132573.812500
933.939453	132637.468750
932.795898	132550.234375
931.652344	132393.062500
930.508789	132362.718750
929.364258	132417.593750
928.219727	132444.046875
927.075195	132313.218750
925.930664	132444.484375
924.786133	132300.578125
923.640625	132281.156250
922.495117	132224.640625
921.349609	132266.312500
920.203125	132153.078125
919.056641	132218.734375
917.910156	132107.734375
916.763672	132073.062500
915.617188	132182.265625
914.469727	132060.406250
913.322266	131997.421875
912.174805	131993.265625
911.026367	131941.203125
909.877930	131921.812500
908.729492	131932.890625
907.581055	131856.890625
906.432617	131852.734375
905.283203	131837.687500
904.133789	131870.500000
902.983398	131814.125000
901.833984	131836.031250
900.683594	131790.546875
899.533203	131603.812500
898.382813	131551.843750
897.231445	131617.203125
896.081055	131658.640625
894.929688	131582.796875
893.777344	131572.093750
892.625977	131546.203125
891.473633	131440.031250
890.321289	131468.390625
889.168945	131475.046875
888.015625	131447.000000
886.862305	131399.437500
885.708984	131471.093750
884.555664	131182.984375
883.402344	131382.484375
882.248047	131298.125000
881.093750	131287.421875
879.938477	131198.765625
878.784180	131198.890625
877.628906	131287.750000
876.473633	131127.718750
875.318359	131238.171875
874.162109	131112.812500
873.005859	131141.031250
871.849609	131045.992188
870.693359	131102.296875
869.536133	131018.101563
868.379883	130920.960938
867.222656	130858.421875
866.064453	130901.726563
864.907227	130936.367188
863.749023	130897.585938
862.590820	130826.437500
861.431641	130815.734375
860.273438	130796.390625
859.114258	130846.078125
857.955078	130740.460938
856.794922	130727.593750
855.635742	130611.250000
854.475586	130563.921875
853.315430	130581.234375
852.154297	130566.226563
850.994141	130611.523438
849.833008	130469.445313
848.671875	130486.742188
847.509766	130525.539063
846.348633	130471.781250
845.186523	130448.156250
844.024414	130413.773438
842.861328	130441.773438
841.699219	130302.039063
840.536133	130321.429688
839.373047	130252.687500
838.208984	130261.320313
837.044922	130233.421875
835.881836	130190.492188
834.716797	130222.734375
833.552734	130244.210938
832.387695	130139.039063
831.222656	130179.820313
830.057617	130106.867188
828.891602	130081.132813
827.726563	129999.640625
826.560547	130018.945313
825.394531	130100.398438
824.227539	129980.351563
823.060547	129926.773438
821.893555	129849.640625
820.726563	129973.867188
819.558594	129853.914063
818.391602	129871.023438
817.223633	129806.781250
816.054688	129753.257813
814.886719	129712.585938
813.717773	129691.171875
812.548828	129723.226563
811.379883	129618.414063
810.209961	129535.015625
809.040039	129654.687500
807.870117	129622.578125
806.700195	129703.703125
805.529297	129579.750000
804.358398	129594.640625
803.187500	129498.492188
802.016602	129406.656250
800.844727	129577.320313
799.672852	129366.015625
798.500977	129291.296875
797.329102	129304.046875
796.156250	129193.109375
794.983398	129359.343750
793.810547	129227.117188
792.636719	129224.914063
791.463867	129122.585938
790.290039	129101.218750
789.116211	129079.859375
787.941406	129037.210938
786.766602	129122.281250
785.591797	129137.078125
784.416992	129105.062500
783.242188	128996.468750
782.066406	128968.726563
780.890625	128917.601563
779.714844	128943.015625
778.538086	128836.648438
777.361328	128906.671875
776.184570	128776.968750
775.007813	128757.757813
773.830078	128755.531250
772.652344	128672.625000
771.474609	128706.484375
770.296875	128723.343750
769.118164	128714.734375
767.939453	128706.109375
766.760742	128572.367188
765.582031	128559.523438
764.402344	128618.750000
763.222656	128544.429688
762.042969	128491.320313
760.863281	128444.578125
759.682617	128552.460938
758.501953	128440.062500
757.321289	128406.039063
756.139648	128344.507813
754.958984	128399.382813
753.777344	128316.703125
752.594727	128360.968750
751.413086	128295.234375
750.230469	128252.781250
749.047852	128292.773438
747.865234	128214.390625
746.681641	128184.632813
745.498047	128296.414063
744.314453	128161.039063
743.130859	128101.718750
741.946289	128067.757813
740.761719	127932.484375
739.577148	128115.914063
738.392578	128012.320313
737.207031	128056.414063
736.021484	127963.406250
734.835938	127838.804688
733.649414	127876.562500
732.463867	127829.992188
731.277344	127775.007813
730.090820	127848.539063
728.903320	127774.601563
727.715820	127808.078125
726.528320	127700.476563
725.340820	127696.054688
724.152344	127687.414063
722.964844	127655.625000
721.775391	127546.015625
720.586914	127594.171875
719.398438	127526.656250
718.208984	127520.125000
717.019531	127490.460938
715.829102	127565.867188
714.639648	127397.554688
713.449219	127409.921875
712.257813	127451.671875
711.067383	127354.835938
709.875977	127327.304688
708.684570	127303.968750
707.493164	127232.382813
706.301758	127284.578125
705.109375	127141.710938
703.916992	127158.234375
702.723633	127155.882813
701.531250	127140.945313
700.337891	127079.914063
699.144531	127115.265625
697.951172	126947.437500
696.756836	126943.000000
695.562500	126972.046875
694.368164	126965.492188
693.173828	126944.281250
691.978516	126889.601563
690.783203	126937.429688
689.587891	126774.015625
688.391602	126819.742188
687.196289	126721.210938
686.000000	126789.890625
684.802734	126758.250000
683.606445	126666.039063
682.409180	126705.421875
681.211914	126698.851563
680.014648	126612.945313
678.816406	126575.078125
677.618164	126633.195313
676.419922	126564.023438
675.221680	126557.453125
674.022461	126538.359375
672.823242	126492.164063
671.624023	126491.828125
670.423828	126258.093750
669.224609	126418.226563
668.024414	126436.640625
666.823242	126369.648438
665.623047	126273.523438
664.421875	126266.953125
663.220703	126193.773438
662.019531	126255.859375
660.817383	126168.140625
659.615234	126163.632813
658.413086	126194.476563
657.210938	126148.375000
656.007813	126141.781250
654.804688	126170.507813
653.601563	126043.390625
652.397461	126038.867188
651.194336	126021.882813
649.990234	126029.812500
648.785156	125871.671875
647.581055	125858.859375
646.375977	125914.515625
645.170898	125814.554688
643.965820	125872.250000
642.759766	125915.406250
641.553711	125693.171875
640.347656	125746.687500
639.141602	125802.250000
637.934570	125665.101563
636.727539	125675.070313
635.520508	125583.554688
634.312500	125628.710938
633.105469	125615.890625
631.897461	125609.265625
630.688477	125581.953125
629.480469	125645.656250
628.271484	125521.125000
627.062500	125497.953125
625.852539	125332.148438
624.643555	125439.226563
623.433594	125391.265625
622.223633	125277.210938
621.012695	125330.500000
619.802734	125299.093750
618.591797	125267.695313
617.379883	125343.625000
616.168945	125295.703125
614.957031	125237.476563
613.745117	125224.648438
612.533203	125236.562500
611.320313	125108.257813
610.107422	125111.929688
608.894531	124994.000000
607.680664	125022.398438
606.467773	124978.687500
605.253906	124794.921875
604.040039	125012.773438
602.825195	124917.593750
601.610352	124902.718750
600.395508	124830.218750
599.180664	124901.765625
597.964844	124899.218750
596.749023	124814.414063
595.533203	124746.078125
594.317383	124827.820313
593.100586	124695.789063
591.883789	124736.398438
590.666992	124594.156250
589.450195	124628.593750
588.232422	124603.453125
587.014648	124592.695313
585.796875	124514.195313
584.578125	124560.898438
583.359375	124543.976563
582.140625	124488.078125
580.921875	124514.226563
579.702148	124382.484375
578.482422	124357.382813
577.262695	124319.984375
576.041992	124479.281250
574.821289	124329.195313
573.600586	124383.968750
572.379883	124256.468750
571.159180	124499.539063
569.937500	124222.664063
568.715820	124173.015625
567.493164	124172.476563
566.270508	123994.000000
565.048828	124110.039063
563.825195	124078.828125
562.602539	124198.875000
561.378906	124077.726563
560.155273	123989.312500
558.931641	123986.718750
557.707031	123935.101563
556.482422	123971.296875
555.257813	123840.078125
554.033203	123913.000000
552.807617	123830.804688
551.582031	123881.234375
550.356445	123786.835938
549.129883	123951.421875
547.904297	123814.218750
546.676758	123787.125000
545.450195	123709.093750
544.223633	123684.054688
542.996094	123671.242188
541.767578	123713.406250
540.540039	123519.382813
539.311523	123524.906250
538.083008	123550.773438
536.854492	123487.093750
535.625977	123390.890625
534.396484	123426.914063
533.166992	123361.250000
531.936523	123285.437500
530.707031	123382.398438
529.476563	123448.835938
528.246094	123330.375000
527.014648	123313.500000
525.783203	123262.109375
524.551758	123220.882813
523.320313	123362.335938
522.087891	123231.804688
520.856445	123176.390625
519.623047	123163.578125
518.390625	123100.070313
517.157227	123058.882813
515.923828	123035.953125
514.690430	123071.789063
513.457031	123004.273438
512.222656	122983.367188
510.988281	122994.867188
509.752930	122882.835938
508.518555	122910.531250
507.283203	122891.656250
506.047852	122763.515625
504.811523	122801.304688
503.576172	122814.796875
502.339844	122787.835938
501.102539	122740.664063
499.866211	122695.523438
498.628906	122593.812500
497.391602	122530.523438
496.153320	122693.484375
494.916016	122557.484375
493.677734	122625.453125
492.438477	122604.570313
491.200195	122527.179688
489.960938	122486.140625
488.721680	122473.343750
487.482422	122506.929688
486.242188	122453.796875
485.001953	122459.132813
483.761719	122325.390625
482.520508	122276.335938
481.280273	122390.468750
480.039063	122341.406250
478.796875	122195.695313
477.555664	122350.015625
476.313477	122258.695313
475.071289	122155.328125
473.828125	122168.695313
472.585938	122190.093750
471.342773	122187.343750
470.098633	122035.796875
468.855469	122061.210938
467.611328	121947.929688
466.367188	122073.789063
465.122070	122002.726563
463.877930	121905.578125
462.632813	122065.468750
461.387695	121938.218750
460.141602	121821.054688
458.895508	121878.500000
457.649414	121837.617188
456.403320	121772.671875
455.156250	121733.820313
453.909180	121660.890625
452.662109	121686.195313
451.415039	121767.593750
450.166992	121640.585938
448.918945	121695.906250
447.670898	121621.023438
446.421875	121668.296875
445.172852	121551.398438
443.923828	121592.640625
442.673828	121497.804688
441.424805	121475.015625
440.174805	121434.226563
438.923828	121367.453125
437.673828	121464.632813
436.422852	121361.890625
435.171875	121297.148438
433.919922	121328.320313
432.668945	121287.570313
431.416992	121274.789063
430.164063	121206.093750
428.912109	121127.453125
427.659180	121140.625000
426.406250	121187.703125
425.152344	121115.070313
423.899414	121126.226563
422.645508	121099.476563
421.390625	121008.953125
420.136719	120978.242188
418.881836	121023.250000
417.626953	120976.593750
416.372070	120852.281250
415.116211	120875.367188
413.860352	120860.601563
412.604492	120899.570313
411.347656	120908.671875
410.090820	120752.640625
408.833984	120811.476563
407.577148	120741.023438
406.319336	120718.312500
405.061523	120713.484375
403.803711	120710.640625
402.544922	120660.109375
401.287109	120611.570313
400.027344	120543.195313
398.768555	120558.226563
397.508789	120499.796875
396.249023	120520.773438
394.989258	120456.406250
393.729492	120445.625000
392.468750	120508.218750
391.208008	120380.421875
389.946289	120403.335938
388.685547	120396.507813
387.423828	120342.117188
386.162109	120333.296875
384.899414	120346.273438
383.636719	120280.015625
382.374023	120247.445313
381.111328	120204.976563
379.847656	120198.140625
378.583984	120215.039063
377.320313	120135.000000
376.055664	120088.609375
374.791992	120063.984375
373.526367	119950.398438
372.261719	120028.562500
370.996094	119994.054688
369.730469	120060.296875
368.464844	119958.640625
367.199219	120014.968750
365.932617	119889.664063
364.666016	120046.625000
363.398438	119852.281250
362.131836	119823.726563
360.864258	119903.656250
359.595703	119741.000000
358.328125	119665.156250
357.059570	119721.382813
355.791016	119692.851563
354.521484	119778.585938
353.252930	119523.523438
351.983398	119556.078125
350.712891	119582.695313
349.443359	119556.148438
348.172852	119582.742188
346.902344	119603.414063
345.630859	119494.242188
344.360352	119499.171875
343.088867	119494.257813
341.816406	119424.476563
340.544922	119350.781250
339.272461	119263.359375
338.000000	119319.367188
336.726563	119324.281250
335.453125	119331.148438
334.179688	119228.062500
332.906250	119256.523438
331.631836	119190.773438
330.357422	119160.351563
329.083008	119192.703125
327.808594	119179.929688
326.533203	119120.101563
325.257813	119030.890625
323.981445	119118.078125
322.706055	119056.320313
321.429688	119049.429688
320.153320	119052.320313
318.875977	119004.296875
317.598633	118950.414063
316.321289	118914.164063
315.043945	118772.257813
313.765625	118847.546875
312.487305	118844.562500
311.208984	118812.242188
309.929688	118815.117188
308.650391	118724.164063
307.371094	118934.164063
306.091797	118556.046875
304.811523	118789.406250
303.531250	118677.031250
302.250977	118586.171875
300.969727	118602.695313
299.688477	118566.515625
298.407227	118538.148438
297.125000	118605.359375
295.843750	118510.679688
294.561523	118511.562500
293.278320	118492.945313
291.996094	118374.937500
290.712891	118451.812500
289.428711	118384.500000
288.145508	118416.523438
286.861328	118321.976563
285.577148	118281.960938
284.291992	118276.992188
283.007813	118233.093750
281.722656	118292.312500
280.436523	118193.968750
279.151367	118185.093750
277.865234	118164.554688
276.579102	118041.007813
275.291992	118049.640625
274.004883	118060.203125
272.717773	118026.085938
271.430664	118050.226563
270.142578	117957.859375
268.854492	117960.640625
267.566406	118021.617188
266.278320	117991.382813
264.989258	117848.656250
263.700195	117907.656250
262.410156	117770.804688
261.121094	117905.382813
259.831055	117842.218750
258.540039	117705.453125
257.250000	117743.070313
255.958984	117670.273438
254.667969	117688.507813
253.375977	117615.742188
252.083984	117612.679688
250.791992	117561.226563
249.500000	117602.648438
248.207031	117382.953125
246.914063	117497.851563
245.621094	117461.906250
244.327148	117453.031250
243.033203	117349.460938
241.739258	117489.351563
240.445313	117397.398438
239.150391	117322.851563
237.855469	117456.835938
236.560547	117220.164063
235.264648	117340.585938
233.968750	117269.945313
232.672852	117174.257813
231.375977	117169.242188
230.080078	117256.750000
228.782227	117155.320313
227.485352	117154.140625
226.187500	117102.851563
224.889648	117178.718750
223.591797	117060.031250
222.292969	117006.851563
220.994141	116861.289063
219.695313	116906.312500
218.396484	116845.476563
217.096680	116882.773438
215.796875	116856.578125
214.496094	116864.992188
213.196289	116786.890625
211.895508	116854.882813
210.593750	116794.093750
209.292969	116739.093750
207.991211	116689.867188
206.689453	116688.656250
205.386719	116656.726563
204.083984	116640.148438
202.781250	116621.656250
201.478516	116660.718750
200.174805	116609.609375
198.871094	116566.187500
197.567383	116511.265625
196.262695	116517.703125
194.958984	116437.890625
193.653320	116476.890625
192.348633	116399.023438
191.042969	116403.531250
189.737305	116385.046875
188.431641	116311.054688
187.125000	116365.312500
185.818359	116321.953125
184.511719	116171.492188
183.204102	116185.554688
181.896484	116182.390625
180.588867	116144.812500
179.280273	116112.984375
177.972656	116062.046875
176.664063	116039.781250
175.354492	116002.242188
174.044922	116041.085938
172.735352	115999.718750
171.425781	115937.375000
170.116211	116037.242188
168.805664	116018.781250
167.494141	115872.523438
166.183594	115838.835938
164.872070	115778.460938
163.560547	115925.859375
162.249023	115808.312500
160.936523	115768.914063
159.624023	115731.437500
158.311523	115716.812500
156.998047	115730.750000
155.684570	115695.187500
154.371094	115699.585938
153.056641	115534.648438
151.742188	115527.656250
150.427734	115583.414063
149.113281	115525.062500
147.797852	115540.867188
146.482422	115429.320313
145.166992	115420.414063
143.850586	115515.984375
142.534180	115320.937500
141.217773	115359.507813
139.900391	115287.953125
138.583008	115343.578125
137.265625	115243.578125
135.948242	115304.859375
134.629883	115178.351563
133.311523	115150.484375
131.992188	115120.726563
130.673828	115136.468750
129.354492	115227.984375
128.034180	115048.539063
126.714844	115079.414063
125.394531	115023.156250
124.074219	114908.226563
122.752930	114973.148438
121.431641	114814.742188
120.110352	114855.046875
118.789063	114772.382813
117.466797	114774.843750
116.144531	114843.460938
114.821289	114764.609375
113.499023	114708.460938
112.175781	114805.367188
110.852539	114594.328125
109.528320	114694.976563
108.204102	114578.445313
106.879883	114520.476563
105.554688	114513.476563
104.230469	114464.960938
102.904297	114414.578125
101.579102	114483.015625
100.252930	114344.015625
